Folder: R4EnvChem/data

Note: README.md
# R for Environmental Chemistry 

Developping course material and workflows based in R for undergraduate UofT Environmental Chemistry courses.

File: ATR_plastics.csv
"wavenumber","sample","absorbance"
550.0952,"EPDM",0.2119556
550.0952,"Polystyrene",0.07463058
550.0952,"Polyethylene",0.000873196
550.0952,"Sample: Shopping bag",0.02364882
550.5773,"EPDM",0.2124079
550.5773,"Polystyrene",0.07455246
550.5773,"Polyethylene",0.000834192
550.5773,"Sample: Shopping bag",0.02382648
551.0594,"EPDM",0.2128818
551.0594,"Polystyrene",0.07450471
551.0594,"Polyethylene",0.000819447
551.0594,"Sample: Shopping bag",0.02387163
551.5415,"EPDM",0.2133267
551.5415,"Polystyrene",0.07449704
551.5415,"Polyethylene",0.000825491
551.5415,"Sample: Shopping bag",0.02391921
552.0236,"EPDM",0.2137241
552.0236,"Polystyrene",0.07452058
552.0236,"Polyethylene",0.000868397
552.0236,"Sample: Shopping bag",0.02396947
552.5057,"EPDM",0.2140997
552.5057,"Polystyrene",0.07455528
552.5057,"Polyethylene",0.000949017
552.5057,"Sample: Shopping bag",0.02402323
552.9879,"EPDM",0.2145173
552.9879,"Polystyrene",0.07458498
552.9879,"Polyethylene",0.001008869
552.9879,"Sample: Shopping bag",0.02408946
553.47,"EPDM",0.2150495
553.47,"Polystyrene",0.07458818
553.47,"Polyethylene",0.0010252
553.47,"Sample: Shopping bag",0.02413738
553.9521,"EPDM",0.2156501
553.9521,"Polystyrene",0.07456694
553.9521,"Polyethylene",0.001053734
553.9521,"Sample: Shopping bag",0.02419313
554.4342,"EPDM",0.2163207
554.4342,"Polystyrene",0.07452466
554.4342,"Polyethylene",0.001066902
554.4342,"Sample: Shopping bag",0.02424033
554.9163,"EPDM",0.2170318
554.9163,"Polystyrene",0.07447084
554.9163,"Polyethylene",0.001056188
554.9163,"Sample: Shopping bag",0.02426789
555.3984,"EPDM",0.2177349
555.3984,"Polystyrene",0.07441481
555.3984,"Polyethylene",0.001044501
555.3984,"Sample: Shopping bag",0.02427777
555.8806,"EPDM",0.2184014
555.8806,"Polystyrene",0.07436047
555.8806,"Polyethylene",0.001051706
555.8806,"Sample: Shopping bag",0.02427188
556.3627,"EPDM",0.2190562
556.3627,"Polystyrene",0.07430276
556.3627,"Polyethylene",0.001061679
556.3627,"Sample: Shopping bag",0.02424267
556.8448,"EPDM",0.2196827
556.8448,"Polystyrene",0.0742451
556.8448,"Polyethylene",0.001119621
556.8448,"Sample: Shopping bag",0.02422142
557.3269,"EPDM",0.2202756
557.3269,"Polystyrene",0.0741929
557.3269,"Polyethylene",0.001223141
557.3269,"Sample: Shopping bag",0.02422678
557.809,"EPDM",0.2208065
557.809,"Polystyrene",0.07415483
557.809,"Polyethylene",0.00135028
557.809,"Sample: Shopping bag",0.0242722
558.2911,"EPDM",0.221236
558.2911,"Polystyrene",0.0741393
558.2911,"Polyethylene",0.001465345
558.2911,"Sample: Shopping bag",0.02436322
558.7733,"EPDM",0.2216212
558.7733,"Polystyrene",0.07413711
558.7733,"Polyethylene",0.001464324
558.7733,"Sample: Shopping bag",0.02443497
559.2554,"EPDM",0.2218603
559.2554,"Polystyrene",0.07416032
559.2554,"Polyethylene",0.001438965
559.2554,"Sample: Shopping bag",0.02455257
559.7375,"EPDM",0.2219969
559.7375,"Polystyrene",0.07420024
559.7375,"Polyethylene",0.001366238
559.7375,"Sample: Shopping bag",0.02471445
560.2196,"EPDM",0.2221402
560.2196,"Polystyrene",0.07423479
560.2196,"Polyethylene",0.001246062
560.2196,"Sample: Shopping bag",0.02486027
560.7017,"EPDM",0.2223532
560.7017,"Polystyrene",0.07425515
560.7017,"Polyethylene",0.001116078
560.7017,"Sample: Shopping bag",0.02497118
561.1838,"EPDM",0.2226563
561.1838,"Polystyrene",0.07426071
561.1838,"Polyethylene",0.001017787
561.1838,"Sample: Shopping bag",0.0250296
561.666,"EPDM",0.2229459
561.666,"Polystyrene",0.07428109
561.666,"Polyethylene",0.000988206
561.666,"Sample: Shopping bag",0.02511967
562.1481,"EPDM",0.2232875
562.1481,"Polystyrene",0.07429599
562.1481,"Polyethylene",0.00100124
562.1481,"Sample: Shopping bag",0.02509523
562.6302,"EPDM",0.2236148
562.6302,"Polystyrene",0.07432249
562.6302,"Polyethylene",0.000993165
562.6302,"Sample: Shopping bag",0.02502063
563.1123,"EPDM",0.2238745
563.1123,"Polystyrene",0.07435767
563.1123,"Polyethylene",0.000975268
563.1123,"Sample: Shopping bag",0.0249352
563.5944,"EPDM",0.2240832
563.5944,"Polystyrene",0.07438361
563.5944,"Polyethylene",0.000923987
563.5944,"Sample: Shopping bag",0.0248624
564.0765,"EPDM",0.224298
564.0765,"Polystyrene",0.07437853
564.0765,"Polyethylene",0.00083123
564.0765,"Sample: Shopping bag",0.02482302
564.5587,"EPDM",0.2245866
564.5587,"Polystyrene",0.07432961
564.5587,"Polyethylene",0.000708671
564.5587,"Sample: Shopping bag",0.02482992
565.0408,"EPDM",0.2249863
565.0408,"Polystyrene",0.07423984
565.0408,"Polyethylene",0.000581324
565.0408,"Sample: Shopping bag",0.02488362
565.5229,"EPDM",0.225487
565.5229,"Polystyrene",0.07412762
565.5229,"Polyethylene",0.000478958
565.5229,"Sample: Shopping bag",0.02497218
566.005,"EPDM",0.2260382
566.005,"Polystyrene",0.07401957
566.005,"Polyethylene",0.000424525
566.005,"Sample: Shopping bag",0.02507601
566.4871,"EPDM",0.2265814
566.4871,"Polystyrene",0.07394053
566.4871,"Polyethylene",0.000427042
566.4871,"Sample: Shopping bag",0.02517413
566.9692,"EPDM",0.2270763
566.9692,"Polystyrene",0.07390393
566.9692,"Polyethylene",0.00048221
566.9692,"Sample: Shopping bag",0.02525094
567.4514,"EPDM",0.2275181
567.4514,"Polystyrene",0.07390468
567.4514,"Polyethylene",0.000573091
567.4514,"Sample: Shopping bag",0.0252976
567.9335,"EPDM",0.2279388
567.9335,"Polystyrene",0.07392276
567.9335,"Polyethylene",0.000678977
567.9335,"Sample: Shopping bag",0.02531591
568.4156,"EPDM",0.2283955
568.4156,"Polystyrene",0.07394201
568.4156,"Polyethylene",0.000738695
568.4156,"Sample: Shopping bag",0.02532752
568.8977,"EPDM",0.2288922
568.8977,"Polystyrene",0.07394005
568.8977,"Polyethylene",0.000828775
568.8977,"Sample: Shopping bag",0.02531433
569.3798,"EPDM",0.2294581
569.3798,"Polystyrene",0.07392486
569.3798,"Polyethylene",0.000853543
569.3798,"Sample: Shopping bag",0.02528072
569.8619,"EPDM",0.229952
569.8619,"Polystyrene",0.0739194
569.8619,"Polyethylene",0.000925694
569.8619,"Sample: Shopping bag",0.02528196
570.3441,"EPDM",0.2303643
570.3441,"Polystyrene",0.07393811
570.3441,"Polyethylene",0.000999053
570.3441,"Sample: Shopping bag",0.02529481
570.8262,"EPDM",0.2306875
570.8262,"Polystyrene",0.07398935
570.8262,"Polyethylene",0.00104518
570.8262,"Sample: Shopping bag",0.02530078
571.3083,"EPDM",0.2309022
571.3083,"Polystyrene",0.0740733
571.3083,"Polyethylene",0.001098642
571.3083,"Sample: Shopping bag",0.02530916
571.7904,"EPDM",0.2310507
571.7904,"Polystyrene",0.07417244
571.7904,"Polyethylene",0.001161455
571.7904,"Sample: Shopping bag",0.02531715
572.2725,"EPDM",0.2312031
572.2725,"Polystyrene",0.07426257
572.2725,"Polyethylene",0.001230932
572.2725,"Sample: Shopping bag",0.02532347
572.7546,"EPDM",0.2314499
572.7546,"Polystyrene",0.07431713
572.7546,"Polyethylene",0.001248218
572.7546,"Sample: Shopping bag",0.02530386
573.2368,"EPDM",0.2317253
573.2368,"Polystyrene",0.07433052
573.2368,"Polyethylene",0.001294582
573.2368,"Sample: Shopping bag",0.02529831
573.7189,"EPDM",0.2320503
573.7189,"Polystyrene",0.07430036
573.7189,"Polyethylene",0.001311368
573.7189,"Sample: Shopping bag",0.02528431
574.201,"EPDM",0.2323979
574.201,"Polystyrene",0.07423897
574.201,"Polyethylene",0.001290407
574.201,"Sample: Shopping bag",0.02526152
574.6831,"EPDM",0.2327415
574.6831,"Polystyrene",0.0741655
574.6831,"Polyethylene",0.001234038
574.6831,"Sample: Shopping bag",0.02523328
575.1652,"EPDM",0.2330672
575.1652,"Polystyrene",0.07409609
575.1652,"Polyethylene",0.001155067
575.1652,"Sample: Shopping bag",0.02520236
575.6473,"EPDM",0.2333857
575.6473,"Polystyrene",0.07404159
575.6473,"Polyethylene",0.001072302
575.6473,"Sample: Shopping bag",0.02517463
576.1295,"EPDM",0.233724
576.1295,"Polystyrene",0.07400767
576.1295,"Polyethylene",0.001007114
576.1295,"Sample: Shopping bag",0.0251565
576.6116,"EPDM",0.2341043
576.6116,"Polystyrene",0.07399778
576.6116,"Polyethylene",0.000974938
576.6116,"Sample: Shopping bag",0.0251547
577.0937,"EPDM",0.2345269
577.0937,"Polystyrene",0.07401179
577.0937,"Polyethylene",0.000980172
577.0937,"Sample: Shopping bag",0.02517252
577.5758,"EPDM",0.234979
577.5758,"Polystyrene",0.07404649
577.5758,"Polyethylene",0.00101488
577.5758,"Sample: Shopping bag",0.02521104
578.0579,"EPDM",0.2354426
578.0579,"Polystyrene",0.07409444
578.0579,"Polyethylene",0.001060996
578.0579,"Sample: Shopping bag",0.02526754
578.54,"EPDM",0.2359
578.54,"Polystyrene",0.07414567
578.54,"Polyethylene",0.001097114
578.54,"Sample: Shopping bag",0.02533764
579.0222,"EPDM",0.2363391
579.0222,"Polystyrene",0.07418928
579.0222,"Polyethylene",0.001105825
579.0222,"Sample: Shopping bag",0.02541546
579.5043,"EPDM",0.2367622
579.5043,"Polystyrene",0.07421686
579.5043,"Polyethylene",0.001079074
579.5043,"Sample: Shopping bag",0.02549614
579.9864,"EPDM",0.2371865
579.9864,"Polystyrene",0.07422853
579.9864,"Polyethylene",0.001021209
579.9864,"Sample: Shopping bag",0.02557787
580.4685,"EPDM",0.2376308
580.4685,"Polystyrene",0.07423323
580.4685,"Polyethylene",0.000945312
580.4685,"Sample: Shopping bag",0.02566184
580.9506,"EPDM",0.2381086
580.9506,"Polystyrene",0.07424467
580.9506,"Polyethylene",0.000870161
580.9506,"Sample: Shopping bag",0.02574953
581.4327,"EPDM",0.2386233
581.4327,"Polystyrene",0.07427566
581.4327,"Polyethylene",0.000814115
581.4327,"Sample: Shopping bag",0.02584184
581.9149,"EPDM",0.2391779
581.9149,"Polystyrene",0.07433382
581.9149,"Polyethylene",0.000790428
581.9149,"Sample: Shopping bag",0.02593863
582.397,"EPDM",0.2397659
582.397,"Polystyrene",0.07441857
582.397,"Polyethylene",0.000804137
582.397,"Sample: Shopping bag",0.02603637
582.8791,"EPDM",0.2403758
582.8791,"Polystyrene",0.07452273
582.8791,"Polyethylene",0.00085126
582.8791,"Sample: Shopping bag",0.0261298
583.3612,"EPDM",0.2409859
583.3612,"Polystyrene",0.07463621
583.3612,"Polyethylene",0.00091988
583.3612,"Sample: Shopping bag",0.02621238
583.8433,"EPDM",0.2415709
583.8433,"Polystyrene",0.07475156
583.8433,"Polyethylene",0.000995107
583.8433,"Sample: Shopping bag",0.02627945
584.3254,"EPDM",0.2421061
584.3254,"Polystyrene",0.07486645
584.3254,"Polyethylene",0.001062686
584.3254,"Sample: Shopping bag",0.02632929
584.8076,"EPDM",0.2425759
584.8076,"Polystyrene",0.07498264
584.8076,"Polyethylene",0.001113696
584.8076,"Sample: Shopping bag",0.02636347
585.2897,"EPDM",0.2429838
585.2897,"Polystyrene",0.07510166
585.2897,"Polyethylene",0.001146744
585.2897,"Sample: Shopping bag",0.02638652
585.7718,"EPDM",0.2433532
585.7718,"Polystyrene",0.07522225
585.7718,"Polyethylene",0.00116859
585.7718,"Sample: Shopping bag",0.02640406
586.2539,"EPDM",0.2437179
586.2539,"Polystyrene",0.07533785
586.2539,"Polyethylene",0.001191371
586.2539,"Sample: Shopping bag",0.02641961
586.736,"EPDM",0.2441084
586.736,"Polystyrene",0.07543812
586.736,"Polyethylene",0.001227058
586.736,"Sample: Shopping bag",0.02643267
587.2181,"EPDM",0.2447342
587.2181,"Polystyrene",0.07551049
587.2181,"Polyethylene",0.00132781
587.2181,"Sample: Shopping bag",0.02647911
587.7003,"EPDM",0.2453762
587.7003,"Polystyrene",0.07556868
587.7003,"Polyethylene",0.001445653
587.7003,"Sample: Shopping bag",0.0265103
588.1824,"EPDM",0.2460007
588.1824,"Polystyrene",0.07561707
588.1824,"Polyethylene",0.001569361
588.1824,"Sample: Shopping bag",0.02652117
588.6645,"EPDM",0.2465716
588.6645,"Polystyrene",0.07565772
588.6645,"Polyethylene",0.001682344
588.6645,"Sample: Shopping bag",0.02650799
589.1466,"EPDM",0.2470704
589.1466,"Polystyrene",0.07569227
589.1466,"Polyethylene",0.001767553
589.1466,"Sample: Shopping bag",0.02647221
589.6287,"EPDM",0.2475049
589.6287,"Polystyrene",0.0757216
589.6287,"Polyethylene",0.001813859
589.6287,"Sample: Shopping bag",0.02642134
590.1108,"EPDM",0.2479072
590.1108,"Polystyrene",0.07574893
590.1108,"Polyethylene",0.001820359
590.1108,"Sample: Shopping bag",0.02636822
590.593,"EPDM",0.2483172
590.593,"Polystyrene",0.07577982
590.593,"Polyethylene",0.001797824
590.593,"Sample: Shopping bag",0.02632785
591.0751,"EPDM",0.248768
591.0751,"Polystyrene",0.07582325
591.0751,"Polyethylene",0.001765752
591.0751,"Sample: Shopping bag",0.02631341
591.5572,"EPDM",0.2492707
591.5572,"Polystyrene",0.07588864
591.5572,"Polyethylene",0.001746411
591.5572,"Sample: Shopping bag",0.02633132
592.0393,"EPDM",0.2498136
592.0393,"Polystyrene",0.07598245
592.0393,"Polyethylene",0.001756999
592.0393,"Sample: Shopping bag",0.02637902
592.5214,"EPDM",0.2503717
592.5214,"Polystyrene",0.07610588
592.5214,"Polyethylene",0.001804537
592.5214,"Sample: Shopping bag",0.02644602
593.0035,"EPDM",0.2509225
593.0035,"Polystyrene",0.07625341
593.0035,"Polyethylene",0.001883247
593.0035,"Sample: Shopping bag",0.02651935
593.4857,"EPDM",0.2514572
593.4857,"Polystyrene",0.07641386
593.4857,"Polyethylene",0.001975973
593.4857,"Sample: Shopping bag",0.02658827
593.9678,"EPDM",0.2519833
593.9678,"Polystyrene",0.07657407
593.9678,"Polyethylene",0.00206057
593.9678,"Sample: Shopping bag",0.0266493
594.4499,"EPDM",0.2525177
594.4499,"Polystyrene",0.0767227
594.4499,"Polyethylene",0.002116715
594.4499,"Sample: Shopping bag",0.02670641
594.932,"EPDM",0.2530745
594.932,"Polystyrene",0.07685436
594.932,"Polyethylene",0.002131645
594.932,"Sample: Shopping bag",0.02676901
595.4141,"EPDM",0.2536553
595.4141,"Polystyrene",0.07697141
595.4141,"Polyethylene",0.002103785
595.4141,"Sample: Shopping bag",0.02684598
595.8962,"EPDM",0.2542459
595.8962,"Polystyrene",0.07708298
595.8962,"Polyethylene",0.002040809
595.8962,"Sample: Shopping bag",0.02694083
596.3784,"EPDM",0.2548205
596.3784,"Polystyrene",0.07720155
596.3784,"Polyethylene",0.001957043
596.3784,"Sample: Shopping bag",0.02704939
596.8605,"EPDM",0.2553537
596.8605,"Polystyrene",0.07733911
596.8605,"Polyethylene",0.001867761
596.8605,"Sample: Shopping bag",0.02716182
597.3426,"EPDM",0.2558284
597.3426,"Polystyrene",0.07750237
597.3426,"Polyethylene",0.001785129
597.3426,"Sample: Shopping bag",0.02726671
597.8247,"EPDM",0.2562392
597.8247,"Polystyrene",0.07769074
597.8247,"Polyethylene",0.001717077
597.8247,"Sample: Shopping bag",0.02735729
598.3068,"EPDM",0.2565909
598.3068,"Polystyrene",0.07789605
598.3068,"Polyethylene",0.001666714
598.3068,"Sample: Shopping bag",0.02743364
598.7889,"EPDM",0.256892
598.7889,"Polystyrene",0.07810558
598.7889,"Polyethylene",0.001634551
598.7889,"Sample: Shopping bag",0.02750357
599.2711,"EPDM",0.2571509
599.2711,"Polystyrene",0.07830556
599.2711,"Polyethylene",0.001620507
599.2711,"Sample: Shopping bag",0.02757767
599.7532,"EPDM",0.2573747
599.7532,"Polystyrene",0.07848483
599.7532,"Polyethylene",0.001623823
599.7532,"Sample: Shopping bag",0.02766489
600.2353,"EPDM",0.2575707
600.2353,"Polystyrene",0.07863799
600.2353,"Polyethylene",0.001643964
600.2353,"Sample: Shopping bag",0.02776798
600.7174,"EPDM",0.2577517
600.7174,"Polystyrene",0.07876486
600.7174,"Polyethylene",0.001678454
600.7174,"Sample: Shopping bag",0.02788278
601.1995,"EPDM",0.2579352
601.1995,"Polystyrene",0.07886892
601.1995,"Polyethylene",0.001722872
601.1995,"Sample: Shopping bag",0.0280002
601.6816,"EPDM",0.2581384
601.6816,"Polystyrene",0.07895363
601.6816,"Polyethylene",0.001770575
601.6816,"Sample: Shopping bag",0.02811045
602.1638,"EPDM",0.2583706
602.1638,"Polystyrene",0.0790199
602.1638,"Polyethylene",0.001814776
602.1638,"Sample: Shopping bag",0.02820664
602.6459,"EPDM",0.2586256
602.6459,"Polystyrene",0.07906443
602.6459,"Polyethylene",0.001850065
602.6459,"Sample: Shopping bag",0.02828672
603.128,"EPDM",0.2588811
603.128,"Polystyrene",0.0790812
603.128,"Polyethylene",0.001874748
603.128,"Sample: Shopping bag",0.02835319
603.6101,"EPDM",0.2591051
603.6101,"Polystyrene",0.07906428
603.6101,"Polyethylene",0.001890991
603.6101,"Sample: Shopping bag",0.02841028
604.0922,"EPDM",0.2592679
604.0922,"Polystyrene",0.0790112
604.0922,"Polyethylene",0.001903761
604.0922,"Sample: Shopping bag",0.02846204
604.5743,"EPDM",0.2593555
604.5743,"Polystyrene",0.07892559
604.5743,"Polyethylene",0.001918606
604.5743,"Sample: Shopping bag",0.02851158
605.0565,"EPDM",0.2593766
605.0565,"Polystyrene",0.07881736
605.0565,"Polyethylene",0.00193892
605.0565,"Sample: Shopping bag",0.02856134
605.5386,"EPDM",0.2593585
605.5386,"Polystyrene",0.07870011
605.5386,"Polyethylene",0.001964191
605.5386,"Sample: Shopping bag",0.02861482
606.0207,"EPDM",0.259336
606.0207,"Polystyrene",0.07858622
606.0207,"Polyethylene",0.001990254
606.0207,"Sample: Shopping bag",0.02867582
606.5028,"EPDM",0.2593376
606.5028,"Polystyrene",0.07848351
606.5028,"Polyethylene",0.002009893
606.5028,"Sample: Shopping bag",0.02874845
606.9849,"EPDM",0.2593756
606.9849,"Polystyrene",0.07839272
606.9849,"Polyethylene",0.002015589
606.9849,"Sample: Shopping bag",0.02883322
607.467,"EPDM",0.2594433
607.467,"Polystyrene",0.07830714
607.467,"Polyethylene",0.002001558
607.467,"Sample: Shopping bag",0.02892563
607.9492,"EPDM",0.259523
607.9492,"Polystyrene",0.07821746
607.9492,"Polyethylene",0.00196571
607.9492,"Sample: Shopping bag",0.02901504
608.4313,"EPDM",0.2595974
608.4313,"Polystyrene",0.07811676
608.4313,"Polyethylene",0.001909968
608.4313,"Sample: Shopping bag",0.02908928
608.9134,"EPDM",0.2596589
608.9134,"Polystyrene",0.07800462
608.9134,"Polyethylene",0.001839591
608.9134,"Sample: Shopping bag",0.02913878
609.3955,"EPDM",0.2597121
609.3955,"Polystyrene",0.07788912
609.3955,"Polyethylene",0.001763299
609.3955,"Sample: Shopping bag",0.02916214
609.8776,"EPDM",0.2597697
609.8776,"Polystyrene",0.07778484
609.8776,"Polyethylene",0.00169028
609.8776,"Sample: Shopping bag",0.02916846
610.3597,"EPDM",0.2598434
[...]
3970.231,"Polystyrene",0.07006394
3970.231,"Polyethylene",0.00030587
3970.231,"Sample: Shopping bag",0.06583716
3970.713,"EPDM",0.1125026
3970.713,"Polystyrene",0.07002859
3970.713,"Polyethylene",0.000325172
3970.713,"Sample: Shopping bag",0.06582178
3971.195,"EPDM",0.1124782
3971.195,"Polystyrene",0.06997077
3971.195,"Polyethylene",0.000355983
3971.195,"Sample: Shopping bag",0.06578043
3971.677,"EPDM",0.1124379
3971.677,"Polystyrene",0.06990444
3971.677,"Polyethylene",0.000393206
3971.677,"Sample: Shopping bag",0.06572429
3972.159,"EPDM",0.1123905
3972.159,"Polystyrene",0.0698403
3972.159,"Polyethylene",0.000432923
3972.159,"Sample: Shopping bag",0.06566474
3972.641,"EPDM",0.1123449
3972.641,"Polystyrene",0.06979038
3972.641,"Polyethylene",0.000473047
3972.641,"Sample: Shopping bag",0.06561472
3973.124,"EPDM",0.112308
3973.124,"Polystyrene",0.06976046
3973.124,"Polyethylene",0.000509253
3973.124,"Sample: Shopping bag",0.06558125
3973.606,"EPDM",0.1122795
3973.606,"Polystyrene",0.06975358
3973.606,"Polyethylene",0.000534614
3973.606,"Sample: Shopping bag",0.06556966
3974.088,"EPDM",0.1122577
3974.088,"Polystyrene",0.06976575
3974.088,"Polyethylene",0.000545329
3974.088,"Sample: Shopping bag",0.06557789
3974.57,"EPDM",0.1122409
3974.57,"Polystyrene",0.06979258
3974.57,"Polyethylene",0.000539036
3974.57,"Sample: Shopping bag",0.06560376
3975.052,"EPDM",0.1122272
3975.052,"Polystyrene",0.06982697
3975.052,"Polyethylene",0.000519526
3975.052,"Sample: Shopping bag",0.06564373
3975.534,"EPDM",0.1122184
3975.534,"Polystyrene",0.06986438
3975.534,"Polyethylene",0.000495693
3975.534,"Sample: Shopping bag",0.06569425
3976.016,"EPDM",0.112217
3976.016,"Polystyrene",0.06990179
3976.016,"Polyethylene",0.000477091
3976.016,"Sample: Shopping bag",0.06575422
3976.498,"EPDM",0.1122257
3976.498,"Polystyrene",0.06993949
3976.498,"Polyethylene",0.000473799
3976.498,"Sample: Shopping bag",0.06582077
3976.98,"EPDM",0.1122407
3976.98,"Polystyrene",0.06997666
3976.98,"Polyethylene",0.000490012
3976.98,"Sample: Shopping bag",0.06588995
3977.463,"EPDM",0.1122585
3977.463,"Polystyrene",0.07001492
3977.463,"Polyethylene",0.00052181
3977.463,"Sample: Shopping bag",0.06595504
3977.945,"EPDM",0.1122723
3977.945,"Polystyrene",0.07005415
3977.945,"Polyethylene",0.000557674
3977.945,"Sample: Shopping bag",0.06600699
3978.427,"EPDM",0.112278
3978.427,"Polystyrene",0.07009312
3978.427,"Polyethylene",0.00058543
3978.427,"Sample: Shopping bag",0.06603745
3978.909,"EPDM",0.112274
3978.909,"Polystyrene",0.07012935
3978.909,"Polyethylene",0.000594724
3978.909,"Sample: Shopping bag",0.06603805
3979.391,"EPDM",0.112265
3979.391,"Polystyrene",0.07016105
3979.391,"Polyethylene",0.000581618
3979.391,"Sample: Shopping bag",0.06600852
3979.873,"EPDM",0.1122584
3979.873,"Polystyrene",0.07018713
3979.873,"Polyethylene",0.000554099
3979.873,"Sample: Shopping bag",0.06595213
3980.355,"EPDM",0.1122619
3980.355,"Polystyrene",0.07020716
3980.355,"Polyethylene",0.000523167
3980.355,"Sample: Shopping bag",0.06587858
3980.837,"EPDM",0.1122779
3980.837,"Polystyrene",0.07022158
3980.837,"Polyethylene",0.000507298
3980.837,"Sample: Shopping bag",0.06580038
3981.32,"EPDM",0.1123063
3981.32,"Polystyrene",0.0702342
3981.32,"Polyethylene",0.000517765
3981.32,"Sample: Shopping bag",0.06573106
3981.802,"EPDM",0.1123418
3981.802,"Polystyrene",0.07024532
3981.802,"Polyethylene",0.00055786
3981.802,"Sample: Shopping bag",0.06568174
3982.284,"EPDM",0.1123777
3982.284,"Polystyrene",0.07025767
3982.284,"Polyethylene",0.000622744
3982.284,"Sample: Shopping bag",0.06565803
3982.766,"EPDM",0.1124065
3982.766,"Polystyrene",0.07026851
3982.766,"Polyethylene",0.000698001
3982.766,"Sample: Shopping bag",0.0656605
3983.248,"EPDM",0.112426
3983.248,"Polystyrene",0.07027716
3983.248,"Polyethylene",0.000765281
3983.248,"Sample: Shopping bag",0.06568367
3983.73,"EPDM",0.1124343
3983.73,"Polystyrene",0.07027604
3983.73,"Polyethylene",0.000806608
3983.73,"Sample: Shopping bag",0.06571753
3984.212,"EPDM",0.1124338
3984.212,"Polystyrene",0.0702631
3984.212,"Polyethylene",0.000809124
3984.212,"Sample: Shopping bag",0.06575263
3984.694,"EPDM",0.1124239
3984.694,"Polystyrene",0.07023297
3984.694,"Polyethylene",0.000769658
3984.694,"Sample: Shopping bag",0.06577732
3985.177,"EPDM",0.1124076
3985.177,"Polystyrene",0.07018948
3985.177,"Polyethylene",0.000691085
3985.177,"Sample: Shopping bag",0.0657883
3985.659,"EPDM",0.1123851
3985.659,"Polystyrene",0.07013816
3985.659,"Polyethylene",0.00058534
3985.659,"Sample: Shopping bag",0.06578487
3986.141,"EPDM",0.1123588
3986.141,"Polystyrene",0.07008969
3986.141,"Polyethylene",0.000470654
3986.141,"Sample: Shopping bag",0.06577238
3986.623,"EPDM",0.1123318
3986.623,"Polystyrene",0.07005388
3986.623,"Polyethylene",0.000363428
3986.623,"Sample: Shopping bag",0.06576031
3987.105,"EPDM",0.1123109
3987.105,"Polystyrene",0.07004075
3987.105,"Polyethylene",0.000281117
3987.105,"Sample: Shopping bag",0.06575893
3987.587,"EPDM",0.1123013
3987.587,"Polystyrene",0.0700535
3987.587,"Polyethylene",0.000231728
3987.587,"Sample: Shopping bag",0.06577828
3988.069,"EPDM",0.1123091
3988.069,"Polystyrene",0.07009058
3988.069,"Polyethylene",0.000218818
3988.069,"Sample: Shopping bag",0.06582301
3988.551,"EPDM",0.1123338
3988.551,"Polystyrene",0.07014268
3988.551,"Polyethylene",0.000237673
3988.551,"Sample: Shopping bag",0.06589191
3989.033,"EPDM",0.1123728
3989.033,"Polystyrene",0.0702014
3989.033,"Polyethylene",0.000274911
3989.033,"Sample: Shopping bag",0.06598131
3989.516,"EPDM",0.1124169
3989.516,"Polystyrene",0.07025585
3989.516,"Polyethylene",0.000315312
3989.516,"Sample: Shopping bag",0.06607922
3989.998,"EPDM",0.1124596
3989.998,"Polystyrene",0.07030344
3989.998,"Polyethylene",0.000346924
3989.998,"Sample: Shopping bag",0.06617744
3990.48,"EPDM",0.1124913
3990.48,"Polystyrene",0.07034209
3990.48,"Polyethylene",0.000361995
3990.48,"Sample: Shopping bag",0.06626388
3990.962,"EPDM",0.1125088
3990.962,"Polystyrene",0.07037635
3990.962,"Polyethylene",0.00036078
3990.962,"Sample: Shopping bag",0.06633193
3991.444,"EPDM",0.1125097
3991.444,"Polystyrene",0.07040964
3991.444,"Polyethylene",0.000350764
3991.444,"Sample: Shopping bag",0.06637678
3991.926,"EPDM",0.1124959
3991.926,"Polystyrene",0.07044555
3991.926,"Polyethylene",0.000340748
3991.926,"Sample: Shopping bag",0.06639963
3992.408,"EPDM",0.1124694
3992.408,"Polystyrene",0.07048107
3992.408,"Polyethylene",0.000340582
3992.408,"Sample: Shopping bag",0.0664016
3992.89,"EPDM",0.1124356
3992.89,"Polystyrene",0.07051438
3992.89,"Polyethylene",0.000351062
3992.89,"Sample: Shopping bag",0.06638845
3993.373,"EPDM",0.1123986
3993.373,"Polystyrene",0.07053944
3993.373,"Polyethylene",0.000368116
3993.373,"Sample: Shopping bag",0.0663665
3993.854,"EPDM",0.1123657
3993.854,"Polystyrene",0.07055566
3993.854,"Polyethylene",0.000380576
3993.854,"Sample: Shopping bag",0.06634261
3994.337,"EPDM",0.112345
3994.337,"Polystyrene",0.07056142
3994.337,"Polyethylene",0.000377524
3994.337,"Sample: Shopping bag",0.0663238
3994.819,"EPDM",0.112344
3994.819,"Polystyrene",0.0705625
3994.819,"Polyethylene",0.000350012
3994.819,"Sample: Shopping bag",0.06631544
3995.301,"EPDM",0.1123666
3995.301,"Polystyrene",0.07056164
3995.301,"Polyethylene",0.000296857
3995.301,"Sample: Shopping bag",0.06631905
3995.783,"EPDM",0.1124148
3995.783,"Polystyrene",0.07056394
3995.783,"Polyethylene",0.000224358
3995.783,"Sample: Shopping bag",0.06633447
3996.265,"EPDM",0.1124813
3996.265,"Polystyrene",0.07056901
3996.265,"Polyethylene",0.00014685
3996.265,"Sample: Shopping bag",0.06635872
3996.747,"EPDM",0.1125573
3996.747,"Polystyrene",0.07057656
3996.747,"Polyethylene",7.67e-05
3996.747,"Sample: Shopping bag",0.06638598
3997.229,"EPDM",0.112631
3997.229,"Polystyrene",0.07058343
3997.229,"Polyethylene",2.61e-05
3997.229,"Sample: Shopping bag",0.06641092
3997.711,"EPDM",0.1126915
3997.711,"Polystyrene",0.07058834
3997.711,"Polyethylene",0
3997.711,"Sample: Shopping bag",0.06642732
3998.194,"EPDM",0.1127322
3998.194,"Polystyrene",0.07059066
3998.194,"Polyethylene",5.82e-07
3998.194,"Sample: Shopping bag",0.06643038
3998.676,"EPDM",0.1127529
3998.676,"Polystyrene",0.07059378
3998.676,"Polyethylene",2.42e-05
3998.676,"Sample: Shopping bag",0.0664198
3999.158,"EPDM",0.112755
3999.158,"Polystyrene",0.0705994
3999.158,"Polyethylene",6.7e-05
3999.158,"Sample: Shopping bag",0.06639505
3999.64,"EPDM",0.1127439
3999.64,"Polystyrene",0.07061107
3999.64,"Polyethylene",0.000124873
3999.64,"Sample: Shopping bag",0.06635968
4000.122,"EPDM",0.1127215
4000.122,"Polystyrene",0.07062594
4000.122,"Polyethylene",0.000194715
4000.122,"Sample: Shopping bag",0.06631783